subject	session	block	trial 	response duration	typeTop	typeBot	sameFlag	response	correctFlag	rt	rtFlag	face_top	x_top_target	y_top_target	x_top_probe	y_top_probe	face_bot	x_bot_target	y_bot_target	x_bot_probe	y_bot_probe
1	1	1	1	0.05	1	1	1	2	0	304.78	0	10	3	1	3	1	15	1	1	1	1
1	1	1	2	1.8	3	3	2	2	1	175.31	1	16	3	3	1	1	19	3	3	1	1
1	1	1	3	0.1	3	3	2	2	1	206.09	1	9	3	1	1	3	2	1	3	3	1
1	1	1	4	1.8	3	3	2	1	0	170.69	1	19	1	3	3	1	19	1	3	3	1
1	1	1	5	0.2	3	3	2	1	0	211.55	1	13	3	3	1	1	1	1	3	3	1
1	1	1	6	0.8	1	1	1	2	0	187.19	1	4	1	1	1	1	6	3	3	3	3
1	1	1	7	0.2	3	3	2	1	0	226.29	1	6	1	1	3	3	19	1	1	3	3
1	1	1	8	0.8	3	3	2	1	0	204.33	1	18	1	3	3	1	6	1	3	3	1
1	1	1	9	0.2	1	1	1	2	0	226.71	1	6	3	3	3	3	8	3	1	3	1
1	1	1	10	0.05	1	1	1	1	1	283.92	1	20	3	3	3	3	20	3	3	3	3
1	1	1	11	0.2	1	1	1	2	0	194.93	1	12	1	1	1	1	8	1	1	1	1
1	1	1	12	0.05	1	1	1	1	1	237.96	1	10	3	3	3	3	13	1	3	1	3
1	1	1	13	0.4	1	1	1	2	0	231.29	1	12	1	3	1	3	7	3	1	3	1
1	1	1	14	0.1	1	1	1	1	1	238.47	1	15	1	3	1	3	2	1	1	1	1
1	1	1	15	1.8	3	3	2	2	1	188.66	1	8	3	3	1	1	5	3	1	1	3
1	1	1	16	0.05	3	3	2	1	0	277.54	1	13	3	3	1	1	17	3	1	1	3
1	1	1	17	0.8	1	1	1	2	0	192.8	1	5	3	3	3	3	20	1	3	1	3
1	1	1	18	0.1	3	3	2	2	1	240.59	1	9	1	1	3	3	6	1	1	3	3
1	1	1	19	1.8	3	3	2	1	0	197.91	1	3	1	3	3	1	17	3	3	1	1
1	1	1	20	0.1	3	3	2	2	1	237.39	1	8	1	1	3	3	4	3	3	1	1
1	1	1	21	1.8	3	3	2	1	0	187.91	1	1	1	3	3	1	16	1	1	3	3
1	1	1	22	0.8	1	1	1	2	0	186.65	1	17	3	1	3	1	4	3	3	3	3
1	1	1	23	0.4	1	1	1	2	0	210.74	1	20	1	3	1	3	3	3	3	3	3
1	1	1	24	0.8	1	1	1	2	0	231.42	1	18	1	1	1	1	5	1	3	1	3
1	1	1	25	0.8	3	3	2	1	0	190.35	1	7	3	1	1	3	11	1	1	3	3
1	1	1	26	0.1	1	1	1	1	1	254.58	1	4	3	3	3	3	18	1	3	1	3
1	1	1	27	0.2	3	3	2	1	0	179.81	1	19	1	1	3	3	13	3	1	1	3
1	1	1	28	1.8	3	3	2	2	1	225.33	1	19	3	1	1	3	5	1	1	3	3
1	1	1	29	1.8	3	3	2	2	1	193.39	1	2	1	1	3	3	1	3	3	1	1
1	1	1	30	0.8	1	1	1	1	1	241.04	1	12	1	3	1	3	15	1	1	1	1
1	1	1	31	0.4	3	3	2	2	1	216.73	1	9	3	3	1	1	15	3	1	1	3
1	1	1	32	0.1	3	3	2	1	0	273.5	1	13	1	1	3	3	20	1	1	3	3
1	1	1	33	1.8	1	1	1	2	0	198.57	1	8	3	3	3	3	10	1	3	1	3
1	1	1	34	0.2	3	3	2	1	0	196.9	1	13	3	3	1	1	7	3	3	1	1
1	1	1	35	0.4	1	1	1	2	0	194.71	1	19	3	1	3	1	14	1	3	1	3
1	1	1	36	1.8	3	3	2	2	1	203.17	1	5	3	3	1	1	11	1	1	3	3
1	1	1	37	0.05	3	3	2	1	0	277.9	1	1	3	3	1	1	14	1	3	3	1
1	1	1	38	0.8	3	3	2	1	0	210.91	1	11	3	3	1	1	1	1	3	3	1
1	1	1	39	0.05	3	3	2	2	1	258.94	1	2	3	3	1	1	19	1	1	3	3
1	1	1	40	0.8	1	1	1	2	0	193.82	1	12	1	1	1	1	17	3	1	3	1
1	1	1	41	0.1	3	3	2	1	0	244.14	1	9	3	3	1	1	18	3	3	1	1
1	1	1	42	0.4	1	1	1	1	1	225	1	10	1	3	1	3	8	1	3	1	3
1	1	1	43	0.4	1	1	1	1	1	187.1	1	4	3	1	3	1	3	3	3	3	3
1	1	1	44	0.1	3	3	2	1	0	222.63	1	14	1	1	3	3	16	3	3	1	1
1	1	1	45	1.8	3	3	2	1	0	180.74	1	7	3	3	1	1	8	3	3	1	1
1	1	1	46	0.05	3	3	2	2	1	253.23	1	8	1	1	3	3	1	3	1	1	3
1	1	1	47	0.4	3	3	2	2	1	191.4	1	18	3	1	1	3	16	1	3	3	1
1	1	1	48	0.2	3	3	2	1	0	210.94	1	12	1	3	3	1	2	3	3	1	1
1	1	1	49	0.2	3	3	2	2	1	242.11	1	13	1	3	3	1	10	3	3	1	1
1	1	1	50	0.4	1	1	1	1	1	193.58	1	3	3	3	3	3	9	1	3	1	3
1	1	1	51	0.1	3	3	2	1	0	257.48	1	14	1	1	3	3	14	3	3	1	1
1	1	1	52	0.2	3	3	2	1	0	247.07	1	2	3	3	1	1	20	3	3	1	1
1	1	1	53	0.05	1	1	1	2	0	234.67	1	19	1	1	1	1	14	3	1	3	1
1	1	1	54	0.05	1	1	1	1	1	255.97	1	1	3	3	3	3	15	3	3	3	3
1	1	1	55	0.05	3	3	2	2	1	218.69	1	18	3	1	1	3	19	3	1	1	3
1	1	1	56	0.1	1	1	1	1	1	204.44	1	2	3	1	3	1	19	3	3	3	3
1	1	1	57	1.8	3	3	2	1	0	190.69	1	14	1	3	3	1	10	1	1	3	3
1	1	1	58	0.2	1	1	1	2	0	206.96	1	7	1	3	1	3	12	3	3	3	3
1	1	1	59	0.1	1	1	1	1	1	233.98	1	9	1	1	1	1	14	1	3	1	3
1	1	1	60	0.4	3	3	2	2	1	208.03	1	15	1	3	3	1	16	1	1	3	3
1	1	1	61	0.8	1	1	1	1	1	244.92	1	15	3	1	3	1	5	3	1	3	1
1	1	1	62	0.05	3	3	2	2	1	246.6	1	7	1	1	3	3	5	1	3	3	1
1	1	1	63	0.4	3	3	2	2	1	208.08	1	2	3	1	1	3	12	3	3	1	1
1	1	1	64	0.8	3	3	2	2	1	231.16	1	6	3	1	1	3	9	1	3	3	1
1	1	1	65	0.1	3	3	2	1	0	266.62	1	13	1	1	3	3	1	3	3	1	1
1	1	1	66	0.1	1	1	1	1	1	230.93	1	12	3	3	3	3	18	1	1	1	1
1	1	1	67	0.05	3	3	2	1	0	228.62	1	16	1	1	3	3	9	1	3	3	1
1	1	1	68	0.05	1	1	1	1	1	234.48	1	10	1	1	1	1	17	1	1	1	1
1	1	1	69	0.8	3	3	2	2	1	210.88	1	9	3	1	1	3	15	1	1	3	3
1	1	1	70	1.8	1	1	1	1	1	193.47	1	13	1	1	1	1	5	3	1	3	1
1	1	1	71	0.4	1	1	1	1	1	223.99	1	13	1	3	1	3	6	3	3	3	3
1	1	1	72	0.4	3	3	2	1	0	193.62	1	16	1	1	3	3	16	1	1	3	3
1	1	1	73	0.2	1	1	1	1	1	226.15	1	1	3	3	3	3	17	1	3	1	3
1	1	1	74	0.2	1	1	1	2	0	205.5	1	3	3	3	3	3	10	1	3	1	3
1	1	1	75	0.2	1	1	1	1	1	215.07	1	3	3	1	3	1	1	3	1	3	1
1	1	1	76	0.4	1	1	1	1	1	250.67	1	1	3	1	3	1	12	1	3	1	3
1	1	1	77	1.8	3	3	2	1	0	192.53	1	15	1	3	3	1	16	1	3	3	1
1	1	1	78	0.8	1	1	1	1	1	186.17	1	11	1	3	1	3	4	1	1	1	1
1	1	2	1	0.2	3	3	2	2	1	278.05	1	19	1	3	3	1	3	3	1	1	3
1	1	2	2	0.2	1	1	1	1	1	262.25	1	15	3	1	3	1	3	3	1	3	1
1	1	2	3	0.05	1	1	1	2	0	268.12	1	15	1	1	1	1	8	1	3	1	3
1	1	2	4	0.2	3	3	2	1	0	215.6	1	14	3	3	1	1	3	3	1	1	3
1	1	2	5	1.8	3	3	2	2	1	176.68	1	19	3	1	1	3	17	3	3	1	1
1	1	2	6	1.8	1	1	1	1	1	186.57	1	20	1	3	1	3	5	1	3	1	3
1	1	2	7	0.1	1	1	1	2	0	237.23	1	12	1	1	1	1	2	3	1	3	1
1	1	2	8	0.8	1	1	1	2	0	192.6	1	8	3	1	3	1	11	3	3	3	3
1	1	2	9	0.4	1	1	1	1	1	211.85	1	16	1	3	1	3	12	3	1	3	1
1	1	2	10	0.05	1	1	1	2	0	267.84	1	1	1	1	1	1	2	1	1	1	1
1	1	2	11	0.05	1	1	1	1	1	233.2	1	9	1	3	1	3	3	1	1	1	1
1	1	2	12	1.8	1	1	1	2	0	192.94	1	6	3	1	3	1	2	1	1	1	1
1	1	2	13	0.8	3	3	2	1	0	197.33	1	6	1	3	3	1	7	3	1	1	3
1	1	2	14	0.2	3	3	2	2	1	243.09	1	15	1	1	3	3	20	3	1	1	3
1	1	2	15	0.05	1	1	1	1	1	274.85	1	3	3	3	3	3	11	1	3	1	3
1	1	2	16	0.05	1	1	1	2	0	228.56	1	7	3	1	3	1	4	1	3	1	3
1	1	2	17	0.1	3	3	2	1	0	245.37	1	1	1	1	3	3	15	1	3	3	1
1	1	2	18	0.05	3	3	2	2	1	276	1	14	1	3	3	1	12	3	3	1	1
1	1	2	19	0.8	3	3	2	1	0	248.58	1	6	3	1	1	3	17	3	3	1	1
1	1	2	20	0.2	1	1	1	2	0	266.89	1	17	3	1	3	1	5	3	1	3	1
1	1	2	21	0.4	3	3	2	1	0	203.21	1	8	1	3	3	1	9	3	1	1	3
1	1	2	22	0.05	3	3	2	1	0	283.35	1	5	3	1	1	3	2	1	3	3	1
1	1	2	23	1.8	1	1	1	2	0	198.12	1	1	3	1	3	1	8	1	3	1	3
1	1	2	24	0.1	1	1	1	2	0	360.29	0	9	3	1	3	1	3	1	1	1	1
1	1	2	25	0.2	1	1	1	2	0	196.55	1	15	1	3	1	3	2	3	1	3	1
1	1	2	26	0.4	3	3	99	99	99	99	99	20	1	1	3	3	19	1	3	3	1
1	1	2	27	0.05	3	3	2	1	0	330.63	0	8	1	3	3	1	19	3	3	1	1
1	1	2	28	0.1	3	3	2	2	1	192.02	1	9	3	1	1	3	9	3	3	1	1
1	1	2	29	0.8	3	3	2	2	1	195.79	1	3	3	3	1	1	10	1	3	3	1
1	1	2	30	1.8	1	1	1	2	0	201.39	1	13	3	1	3	1	11	3	3	3	3
1	1	2	31	0.4	3	3	2	1	0	264.57	1	7	1	1	3	3	4	1	1	3	3
1	1	2	32	0.2	1	1	1	1	1	210.36	1	2	1	1	1	1	1	1	1	1	1
1	1	2	33	0.1	1	1	1	1	1	235.79	1	20	3	3	3	3	16	3	1	3	1
1	1	2	34	0.8	3	3	2	1	0	200.08	1	2	3	1	1	3	5	3	1	1	3
1	1	2	35	0.8	3	3	2	1	0	239.91	1	2	3	3	1	1	10	3	3	1	1
1	1	2	36	0.2	3	3	2	1	0	215.99	1	13	1	3	3	1	6	3	3	1	1
1	1	2	37	0.1	3	3	2	1	0	260.93	1	13	3	1	1	3	14	1	3	3	1
1	1	2	38	0.4	3	3	2	1	0	213.34	1	2	3	1	1	3	9	3	3	1	1
1	1	2	39	0.05	1	1	1	1	1	261.61	1	16	3	3	3	3	7	3	3	3	3
1	1	2	40	0.8	3	3	2	2	1	201.88	1	6	1	3	3	1	6	1	1	3	3
1	1	2	41	0.4	1	1	1	2	0	194.07	1	15	3	3	3	3	1	1	3	1	3
1	1	2	42	0.2	1	1	1	2	0	230.2	1	19	3	3	3	3	4	3	1	3	1
1	1	2	43	0.4	3	3	2	1	0	207.13	1	7	3	3	1	1	3	1	1	3	3
1	1	2	44	0.4	1	1	1	2	0	228.05	1	3	3	3	3	3	18	1	3	1	3
1	1	2	45	0.1	1	1	1	1	1	232.91	1	16	3	1	3	1	17	1	1	1	1
1	1	2	46	1.8	1	1	1	2	0	186.55	1	20	1	1	1	1	11	1	3	1	3
1	1	2	47	0.1	3	3	2	2	1	252.74	1	10	3	1	1	3	6	1	3	3	1
1	1	2	48	0.2	1	1	1	2	0	214.51	1	3	1	1	1	1	17	3	1	3	1
1	1	2	49	0.8	3	3	2	1	0	235.71	1	11	3	1	1	3	8	1	3	3	1
1	1	2	50	1.8	3	3	2	2	1	195.28	1	8	3	1	1	3	20	3	1	1	3
1	1	2	51	0.4	3	3	2	1	0	225.58	1	3	3	3	1	1	19	3	1	1	3
1	1	2	52	1.8	3	3	2	2	1	191.92	1	7	3	1	1	3	4	1	3	3	1
1	1	2	53	0.4	1	1	1	1	1	198.03	1	7	3	3	3	3	15	3	1	3	1
1	1	2	54	0.05	1	1	1	1	1	285.47	1	7	3	3	3	3	16	1	3	1	3
1	1	2	55	0.05	1	1	1	2	0	255.15	1	1	1	1	1	1	8	1	1	1	1
1	1	2	56	0.1	3	3	2	1	0	232.8	1	15	1	1	3	3	14	3	1	1	3
1	1	2	57	0.1	3	3	2	1	0	231.4	1	4	3	1	1	3	9	3	1	1	3
1	1	2	58	1.8	3	3	99	99	99	99	99	9	1	1	3	3	13	1	1	3	3
1	1	2	59	0.1	3	3	2	2	1	277.18	1	11	1	1	3	3	2	3	1	1	3
1	1	2	60	1.8	3	3	2	1	0	223.75	1	1	1	3	3	1	8	1	1	3	3
1	1	2	61	0.05	3	3	2	2	1	284.54	1	3	3	3	1	1	10	3	3	1	1
1	1	2	62	1.8	1	1	1	1	1	286.48	1	4	1	1	1	1	7	1	3	1	3
1	1	2	63	0.1	3	3	2	2	1	349.43	0	19	3	1	1	3	6	1	3	3	1
1	1	2	64	0.4	3	3	2	2	1	195.84	1	3	1	3	3	1	6	1	1	3	3
1	1	2	65	0.8	1	1	1	1	1	190.57	1	6	3	3	3	3	12	3	1	3	1
1	1	2	66	1.8	1	1	1	2	0	252.71	1	4	3	3	3	3	9	1	3	1	3
1	1	2	67	0.4	3	3	2	1	0	296.6	1	13	3	3	1	1	2	3	3	1	1
1	1	2	68	0.2	1	1	1	2	0	219.09	1	6	3	3	3	3	1	3	1	3	1
1	1	2	69	1.8	1	1	1	1	1	225.81	1	5	3	1	3	1	10	3	1	3	1
1	1	2	70	0.1	1	1	1	2	0	245.18	1	8	1	3	1	3	4	1	1	1	1
1	1	2	71	0.2	3	3	2	2	1	234.47	1	7	3	3	1	1	1	1	1	3	3
1	1	2	72	0.8	1	1	1	1	1	286.6	1	11	1	3	1	3	20	1	3	1	3
1	1	2	73	0.8	1	1	1	1	1	242.8	1	9	3	1	3	1	3	3	1	3	1
1	1	2	74	0.8	3	3	2	1	0	219.19	1	8	1	1	3	3	12	3	3	1	1
1	1	2	75	0.2	3	3	2	1	0	258.36	1	10	1	1	3	3	17	3	3	1	1
1	1	2	76	0.05	1	1	1	1	1	290.03	1	16	3	3	3	3	3	1	3	1	3
1	1	2	77	0.4	3	3	2	1	0	206.74	1	2	1	1	3	3	13	1	3	3	1
1	1	2	78	0.8	3	3	2	1	0	259.32	1	2	1	1	3	3	6	1	3	3	1
1	1	3	1	0.2	1	1	1	2	0	257.89	1	6	3	3	3	3	5	3	3	3	3
1	1	3	2	0.4	1	1	1	1	1	192.76	1	17	3	1	3	1	13	3	1	3	1
1	1	3	3	0.1	1	1	1	2	0	204.98	1	15	3	3	3	3	5	3	3	3	3
1	1	3	4	0.1	1	1	1	1	1	207.15	1	13	3	1	3	1	19	1	1	1	1
1	1	3	5	0.4	1	1	1	1	1	214.34	1	14	3	1	3	1	17	3	1	3	1
1	1	3	6	0.8	3	3	2	1	0	192.68	1	6	1	3	3	1	17	3	1	1	3
1	1	3	7	0.05	1	1	1	2	0	217.8	1	5	3	1	3	1	4	1	1	1	1
1	1	3	8	0.8	3	3	2	2	1	198.48	1	16	3	1	1	3	13	3	3	1	1
1	1	3	9	0.2	1	1	1	1	1	214.22	1	18	1	1	1	1	3	1	3	1	3
1	1	3	10	0.2	3	3	2	2	1	169.98	1	3	1	3	3	1	13	1	3	3	1
1	1	3	11	0.2	1	1	1	1	1	206.5	1	1	1	3	1	3	8	3	3	3	3
1	1	3	12	0.05	1	1	1	1	1	301.13	0	16	3	1	3	1	18	3	3	3	3
1	1	3	13	0.2	3	3	2	2	1	229.43	1	8	3	1	1	3	15	3	1	1	3
1	1	3	14	0.4	3	3	2	1	0	209.16	1	12	3	3	1	1	9	3	1	1	3
1	1	3	15	1.8	1	1	1	1	1	222.41	1	20	1	1	1	1	14	3	1	3	1
1	1	3	16	0.4	1	1	1	2	0	216.87	1	3	3	3	3	3	7	1	1	1	1
1	1	3	17	1.8	1	1	1	1	1	225.15	1	19	3	1	3	1	2	1	3	1	3
1	1	3	18	1.8	3	3	2	2	1	242.65	1	3	1	3	3	1	8	1	1	3	3
1	1	3	19	0.2	1	1	1	2	0	226.04	1	3	3	1	3	1	6	1	1	1	1
1	1	3	20	0.05	3	3	2	1	0	288.64	1	15	3	3	1	1	9	3	1	1	3
1	1	3	21	1.8	1	1	1	1	1	197.97	1	4	3	1	3	1	18	3	3	3	3
1	1	3	22	0.2	3	3	2	2	1	197.99	1	1	3	1	1	3	15	1	3	3	1
1	1	3	23	0.8	3	3	2	2	1	226.64	1	15	3	1	1	3	7	1	3	3	1
1	1	3	24	0.8	1	1	1	1	1	253.11	1	19	3	3	3	3	2	3	3	3	3
1	1	3	25	0.1	1	1	1	1	1	269.57	1	2	3	3	3	3	2	3	1	3	1
1	1	3	26	0.1	3	3	2	1	0	234.76	1	2	3	1	1	3	7	1	1	3	3
1	1	3	27	0.8	3	3	2	1	0	220.02	1	8	1	3	3	1	7	3	1	1	3
1	1	3	28	0.1	1	1	1	2	0	223.22	1	11	1	1	1	1	19	3	3	3	3
1	1	3	29	0.4	3	3	2	1	0	241.76	1	15	1	3	3	1	18	3	1	1	3
1	1	3	30	0.05	1	1	1	1	1	294.5	1	6	3	3	3	3	13	1	3	1	3
1	1	3	31	0.1	1	1	1	2	0	238.07	1	11	3	3	3	3	16	1	1	1	1
1	1	3	32	1.8	3	3	2	1	0	184.52	1	4	3	3	1	1	5	3	1	1	3
1	1	3	33	0.05	1	1	1	2	0	219.72	1	4	3	1	3	1	10	3	1	3	1
1	1	3	34	0.4	3	3	2	2	1	377.34	0	16	3	3	1	1	19	3	1	1	3
1	1	3	35	0.1	3	3	2	2	1	196.45	1	18	3	1	1	3	20	1	1	3	3
1	1	3	36	0.05	3	3	2	1	0	212.95	1	11	3	1	1	3	5	3	3	1	1
1	1	3	37	1.8	3	3	2	2	1	191.32	1	7	1	3	3	1	1	1	1	3	3
1	1	3	38	0.8	3	3	2	1	0	208.01	1	8	1	3	3	1	7	3	3	1	1
1	1	3	39	0.05	1	1	1	2	0	249.89	1	12	3	1	3	1	20	1	3	1	3
1	1	3	40	0.05	1	1	1	1	1	251.34	1	11	1	3	1	3	20	3	1	3	1
1	1	3	41	0.2	3	3	2	2	1	188.96	1	5	3	1	1	3	13	1	3	3	1
1	1	3	42	0.8	3	3	2	1	0	205.9	1	12	3	3	1	1	5	3	3	1	1
1	1	3	43	0.05	1	1	1	2	0	223.36	1	9	3	3	3	3	15	3	1	3	1
1	1	3	44	0.4	1	1	1	2	0	232.81	1	20	3	3	3	3	3	3	3	3	3
1	1	3	45	0.05	1	1	1	1	1	217.73	1	15	3	3	3	3	2	3	1	3	1
1	1	3	46	0.8	3	3	2	2	1	239.42	1	10	3	3	1	1	16	3	3	1	1
1	1	3	47	0.1	3	3	2	1	0	211.27	1	11	1	1	3	3	11	3	1	1	3
1	1	3	48	0.1	1	1	1	2	0	215.85	1	11	3	1	3	1	19	1	3	1	3
1	1	3	49	0.4	3	3	2	1	0	214.83	1	5	3	3	1	1	1	1	1	3	3
1	1	3	50	0.05	3	3	2	2	1	232.62	1	2	3	3	1	1	5	1	1	3	3
1	1	3	51	0.4	1	1	1	1	1	212.37	1	3	3	3	3	3	6	1	1	1	1
1	1	3	52	0.2	1	1	1	2	0	204.39	1	17	1	1	1	1	7	3	1	3	1
1	1	3	53	1.8	3	3	2	1	0	203.1	1	7	1	1	3	3	5	3	3	1	1
1	1	3	54	1.8	1	1	1	2	0	196.98	1	14	1	3	1	3	12	3	1	3	1
1	1	3	55	1.8	3	3	2	1	0	221.77	1	8	1	1	3	3	4	1	3	3	1
1	1	3	56	0.1	3	3	2	2	1	218.7	1	4	3	3	1	1	18	3	1	1	3
1	1	3	57	0.8	3	3	2	1	0	338.3	0	2	3	3	1	1	5	3	3	1	1
1	1	3	58	0.2	3	3	2	1	0	224.72	1	7	1	3	3	1	16	1	1	3	3
1	1	3	59	0.8	1	1	1	2	0	235.4	1	1	3	1	3	1	7	3	3	3	3
1	1	3	60	0.8	3	3	2	1	0	231.06	1	12	1	3	3	1	3	3	1	1	3
1	1	3	61	0.2	1	1	1	2	0	233.93	1	10	1	1	1	1	13	3	3	3	3
1	1	3	62	0.1	3	3	2	1	0	219.26	1	5	1	3	3	1	18	3	3	1	1
1	1	3	63	0.1	1	1	1	2	0	242.44	1	15	1	1	1	1	19	1	1	1	1
1	1	3	64	0.8	3	3	2	1	0	415.6	0	11	3	1	1	3	10	3	1	1	3
1	1	3	65	0.4	3	3	2	2	1	192.55	1	9	1	1	3	3	3	3	3	1	1
1	1	3	66	0.05	3	3	2	1	0	226.81	1	20	1	1	3	3	5	3	1	1	3
1	1	3	67	1.8	1	1	1	2	0	209.87	1	7	1	1	1	1	3	3	1	3	1
1	1	3	68	1.8	1	1	1	1	1	194.09	1	7	3	3	3	3	13	1	1	1	1
1	1	3	69	0.1	1	1	1	2	0	223.06	1	11	1	3	1	3	12	3	3	3	3
1	1	3	70	1.8	3	3	2	1	0	254.38	1	10	1	1	3	3	4	1	1	3	3
1	1	3	71	0.2	3	3	2	2	1	214.03	1	6	3	1	1	3	2	1	1	3	3
1	1	3	72	0.4	3	3	2	2	1	205.73	1	6	3	1	1	3	2	1	3	3	1
1	1	3	73	0.05	3	3	2	1	0	268.9	1	12	3	3	1	1	12	3	1	1	3
1	1	3	74	0.4	3	3	2	2	1	204.56	1	12	3	1	1	3	9	3	1	1	3
1	1	3	75	0.4	1	1	1	2	0	222.1	1	10	1	3	1	3	2	3	3	3	3
1	1	3	76	0.8	1	1	1	1	1	228.03	1	3	1	3	1	3	11	1	3	1	3
1	1	3	77	1.8	3	3	2	1	0	189.41	1	2	3	3	1	1	3	1	3	3	1
1	1	3	78	0.2	3	3	2	2	1	218.43	1	10	1	3	3	1	2	3	1	1	3
1	1	4	1	0.8	3	3	2	2	1	204.18	1	3	3	1	1	3	15	3	1	1	3
1	1	4	2	0.1	3	3	2	1	0	360.39	0	5	1	3	3	1	16	1	1	3	3
1	1	4	3	0.4	1	1	1	2	0	209.83	1	10	1	3	1	3	3	1	1	1	1
1	1	4	4	1.8	3	3	2	1	0	240.26	1	14	1	3	3	1	14	1	3	3	1
1	1	4	5	0.2	1	1	1	1	1	213.21	1	5	3	1	3	1	8	1	1	1	1
1	1	4	6	0.8	1	1	1	2	0	204	1	16	3	1	3	1	2	1	3	1	3
1	1	4	7	0.2	1	1	1	1	1	303.46	0	2	3	1	3	1	3	1	3	1	3
1	1	4	8	0.2	3	3	2	2	1	207.44	1	1	3	1	1	3	14	3	1	1	3
1	1	4	9	1.8	3	3	2	1	0	205.33	1	12	1	3	3	1	18	3	3	1	1
1	1	4	10	0.1	3	3	2	1	0	252.37	1	12	3	1	1	3	16	3	3	1	1
1	1	4	11	0.2	3	3	2	2	1	247.59	1	16	3	1	1	3	14	3	1	1	3
1	1	4	12	0.1	1	1	1	1	1	256.91	1	13	3	3	3	3	2	3	3	3	3
1	1	4	13	0.05	1	1	1	2	0	223.15	1	20	1	3	1	3	16	1	1	1	1
1	1	4	14	0.1	1	1	1	1	1	226.28	1	1	1	1	1	1	9	1	3	1	3
1	1	4	15	0.1	1	1	1	2	0	241.79	1	17	1	3	1	3	10	1	3	1	3
1	1	4	16	0.05	1	1	1	1	1	260.12	1	14	1	1	1	1	2	3	1	3	1
1	1	4	17	0.4	1	1	1	2	0	202.71	1	14	3	3	3	3	12	1	1	1	1
1	1	4	18	0.8	3	3	2	1	0	188.74	1	9	3	3	1	1	19	1	1	3	3
1	1	4	19	1.8	3	3	2	2	1	202.49	1	1	3	3	1	1	7	1	3	3	1
1	1	4	20	0.2	1	1	1	1	1	217.87	1	14	1	1	1	1	4	3	1	3	1
1	1	4	21	0.05	3	3	2	2	1	243.37	1	3	3	3	1	1	15	1	3	3	1
1	1	4	22	0.05	1	1	1	1	1	226.9	1	9	3	1	3	1	3	3	1	3	1
1	1	4	23	0.8	3	3	2	2	1	228.23	1	16	1	1	3	3	3	1	3	3	1
1	1	4	24	0.1	1	1	1	1	1	212.2	1	5	1	3	1	3	16	3	3	3	3
1	1	4	25	1.8	1	1	1	2	0	239.44	1	18	1	1	1	1	15	1	1	1	1
1	1	4	26	0.05	1	1	1	1	1	235.75	1	8	1	3	1	3	7	3	1	3	1
1	1	4	27	1.8	1	1	1	2	0	235.93	1	18	1	3	1	3	2	1	3	1	3
1	1	4	28	0.4	3	3	2	1	0	210.15	1	4	3	3	1	1	15	3	3	1	1
1	1	4	29	0.1	1	1	1	2	0	206.05	1	14	1	1	1	1	10	3	1	3	1
1	1	4	30	0.05	1	1	1	1	1	211.51	1	15	1	1	1	1	7	1	1	1	1
1	1	4	31	0.05	1	1	1	2	0	227.18	1	13	3	1	3	1	15	3	3	3	3
1	1	4	32	0.2	1	1	1	1	1	204.09	1	14	1	1	1	1	9	1	1	1	1
1	1	4	33	0.1	1	1	1	1	1	200.34	1	6	1	1	1	1	5	3	1	3	1
1	1	4	34	0.8	1	1	1	2	0	206.12	1	4	1	3	1	3	5	1	1	1	1
1	1	4	35	0.2	1	1	1	1	1	250.47	1	10	1	1	1	1	8	1	3	1	3
1	1	4	36	0.4	1	1	1	1	1	239.46	1	3	1	3	1	3	8	1	1	1	1
1	1	4	37	0.2	3	3	2	1	0	209.23	1	14	3	1	1	3	17	1	3	3	1
1	1	4	38	0.8	1	1	1	2	0	253.76	1	6	3	1	3	1	8	3	1	3	1
1	1	4	39	0.2	3	3	2	1	0	273.41	1	17	1	1	3	3	10	3	1	1	3
1	1	4	40	0.4	3	3	2	2	1	197.35	1	5	1	1	3	3	17	3	1	1	3
1	1	4	41	0.8	1	1	1	1	1	224.93	1	18	1	1	1	1	17	3	1	3	1
1	1	4	42	1.8	1	1	1	2	0	201.4	1	5	3	3	3	3	3	3	1	3	1
1	1	4	43	0.8	3	3	2	1	0	239.71	1	15	3	3	1	1	4	3	1	1	3
1	1	4	44	0.4	3	3	2	2	1	224.33	1	8	1	3	3	1	9	1	3	3	1
1	1	4	45	1.8	1	1	1	1	1	241.67	1	9	3	1	3	1	7	1	1	1	1
1	1	4	46	0.05	3	3	2	2	1	324.43	0	7	3	3	1	1	10	3	3	1	1
1	1	4	47	1.8	1	1	1	1	1	205.94	1	14	1	3	1	3	4	1	3	1	3
1	1	4	48	0.05	1	1	1	2	0	272.62	1	7	3	1	3	1	12	3	3	3	3
1	1	4	49	0.2	3	3	2	1	0	196.71	1	19	1	3	3	1	14	3	1	1	3
1	1	4	50	1.8	1	1	1	2	0	206.46	1	9	1	3	1	3	12	3	3	3	3
1	1	4	51	0.2	3	3	2	1	0	240.82	1	18	3	3	1	1	12	1	3	3	1
1	1	4	52	0.8	3	3	2	2	1	220.64	1	6	1	1	3	3	16	3	1	1	3
1	1	4	53	0.1	1	1	1	1	1	247.92	1	7	1	3	1	3	5	3	1	3	1
1	1	4	54	1.8	1	1	1	1	1	216.58	1	19	1	1	1	1	9	3	1	3	1
1	1	4	55	0.1	3	3	2	1	0	269.09	1	2	1	3	3	1	10	3	1	1	3
1	1	4	56	0.1	1	1	1	2	0	218.41	1	11	3	1	3	1	4	1	1	1	1
1	1	4	57	0.4	3	3	2	1	0	209.57	1	3	1	1	3	3	19	3	1	1	3
1	1	4	58	1.8	3	3	2	2	1	273.67	1	2	3	3	1	1	12	3	1	1	3
1	1	4	59	0.05	1	1	1	1	1	270.2	1	14	1	3	1	3	2	3	1	3	1
1	1	4	60	0.2	1	1	1	2	0	211.86	1	16	3	3	3	3	10	1	3	1	3
1	1	4	61	0.4	3	3	2	1	0	201.18	1	8	3	3	1	1	9	1	1	3	3
1	1	4	62	0.05	1	1	1	2	0	202.26	1	18	3	3	3	3	11	3	1	3	1
1	1	4	63	0.4	1	1	1	1	1	221.55	1	12	1	1	1	1	16	3	1	3	1
1	1	4	64	0.4	3	3	2	2	1	237.41	1	14	3	1	1	3	19	3	3	1	1
1	1	4	65	0.8	1	1	1	1	1	245.92	1	18	1	1	1	1	19	3	3	3	3
1	1	4	66	0.8	3	3	2	1	0	255.92	1	4	1	1	3	3	16	1	3	3	1
1	1	4	67	0.05	1	1	1	2	0	254.27	1	16	1	3	1	3	3	3	3	3	3
1	1	4	68	1.8	3	3	2	1	0	223	1	18	1	3	3	1	13	3	1	1	3
1	1	4	69	1.8	1	1	1	1	1	208.93	1	11	3	3	3	3	10	3	1	3	1
1	1	4	70	0.4	1	1	1	2	0	210.96	1	5	3	1	3	1	15	1	3	1	3
1	1	4	71	0.4	3	3	2	1	0	197.94	1	7	3	3	1	1	9	3	3	1	1
1	1	4	72	0.8	3	3	2	1	0	238.93	1	20	1	1	3	3	11	3	3	1	1
1	1	4	73	0.1	1	1	1	2	0	225.46	1	9	1	1	1	1	12	1	1	1	1
1	1	4	74	0.8	1	1	1	1	1	205.36	1	5	3	1	3	1	5	1	1	1	1
1	1	4	75	0.1	1	1	1	2	0	234.49	1	9	3	3	3	3	13	3	1	3	1
1	1	4	76	0.05	1	1	1	1	1	246.26	1	16	3	3	3	3	11	1	3	1	3
1	1	4	77	0.2	1	1	1	2	0	199.77	1	10	1	3	1	3	14	3	3	3	3
1	1	4	78	0.4	1	1	1	1	1	237.27	1	10	3	3	3	3	10	3	3	3	3
1	1	5	1	0.8	1	1	1	2	0	539.35	0	20	3	3	3	3	14	1	3	1	3
1	1	5	2	0.1	3	3	2	1	0	242.41	1	11	3	1	1	3	7	3	3	1	1
1	1	5	3	0.1	1	1	1	2	0	203.86	1	11	1	3	1	3	1	1	3	1	3
1	1	5	4	1.8	3	3	2	1	0	191.57	1	18	1	3	3	1	13	3	3	1	1
1	1	5	5	1.8	3	3	2	2	1	188.42	1	9	1	1	3	3	9	1	1	3	3
1	1	5	6	0.2	1	1	1	1	1	204.65	1	9	3	1	3	1	5	3	1	3	1
1	1	5	7	0.8	3	3	2	2	1	210.07	1	11	1	3	3	1	4	1	3	3	1
1	1	5	8	0.8	1	1	1	2	0	211.37	1	17	1	3	1	3	15	3	3	3	3
1	1	5	9	0.4	3	3	2	1	0	228.3	1	5	3	1	1	3	12	3	3	1	1
1	1	5	10	0.8	1	1	1	2	0	200.32	1	18	3	1	3	1	13	3	1	3	1
1	1	5	11	0.8	3	3	2	1	0	244.18	1	16	3	1	1	3	11	3	1	1	3
1	1	5	12	0.05	3	3	2	2	1	255.62	1	2	1	1	3	3	17	1	1	3	3
1	1	5	13	0.4	1	1	1	1	1	220.8	1	1	1	3	1	3	11	1	1	1	1
1	1	5	14	0.1	3	3	2	2	1	237.7	1	4	3	1	1	3	12	3	1	1	3
1	1	5	15	0.1	3	3	2	2	1	230.06	1	11	3	3	1	1	3	1	3	3	1
1	1	5	16	1.8	3	3	2	1	0	202.6	1	4	3	1	1	3	8	1	1	3	3
1	1	5	17	1.8	3	3	2	2	1	210.06	1	11	1	1	3	3	10	3	3	1	1
1	1	5	18	0.05	3	3	2	1	0	297.44	1	11	3	1	1	3	6	3	1	1	3
1	1	5	19	0.2	3	3	2	2	1	196.46	1	20	1	3	3	1	5	1	1	3	3
1	1	5	20	1.8	3	3	2	1	0	214.51	1	20	1	3	3	1	15	1	1	3	3
1	1	5	21	1.8	3	3	2	2	1	210.73	1	7	3	3	1	1	17	1	1	3	3
1	1	5	22	0.1	3	3	2	1	0	259.31	1	19	1	1	3	3	11	3	3	1	1
1	1	5	23	0.1	1	1	1	2	0	250.53	1	12	1	3	1	3	17	3	1	3	1
1	1	5	24	0.8	1	1	1	1	1	218.26	1	18	1	1	1	1	10	3	3	3	3
1	1	5	25	0.8	1	1	1	2	0	200.89	1	13	1	3	1	3	18	1	1	1	1
1	1	5	26	0.2	3	3	2	1	0	283.07	1	1	1	3	3	1	4	3	1	1	3
1	1	5	27	0.8	1	1	1	2	0	197.93	1	13	1	1	1	1	2	1	3	1	3
1	1	5	28	0.2	3	3	2	2	1	213.8	1	12	1	1	3	3	18	1	3	3	1
1	1	5	29	0.1	3	3	2	2	1	217.02	1	1	3	3	1	1	8	1	1	3	3
1	1	5	30	0.05	3	3	2	1	0	265.28	1	3	3	3	1	1	17	3	1	1	3
1	1	5	31	0.2	3	3	2	2	1	202.4	1	3	3	1	1	3	8	1	1	3	3
1	1	5	32	0.8	3	3	2	1	0	233.1	1	9	1	1	3	3	9	1	1	3	3
1	1	5	33	0.4	1	1	1	2	0	204.12	1	15	1	3	1	3	7	3	3	3	3
1	1	5	34	0.2	1	1	1	2	0	205.92	1	18	1	3	1	3	7	1	3	1	3
1	1	5	35	1.8	3	3	2	1	0	198.35	1	9	1	3	3	1	7	3	1	1	3
1	1	5	36	0.8	1	1	1	2	0	180.26	1	18	3	3	3	3	10	1	3	1	3
1	1	5	37	1.8	1	1	1	1	1	187.53	1	19	3	3	3	3	19	3	1	3	1
1	1	5	38	0.2	1	1	1	2	0	210.12	1	17	3	3	3	3	8	1	1	1	1
1	1	5	39	0.4	1	1	1	1	1	239.83	1	2	1	1	1	1	17	3	3	3	3
1	1	5	40	0.05	1	1	1	2	0	318.19	0	3	1	1	1	1	4	3	3	3	3
1	1	5	41	1.8	3	3	2	2	1	191.78	1	10	1	3	3	1	14	3	1	1	3
1	1	5	42	0.05	1	1	1	2	0	440.06	0	17	3	3	3	3	5	3	1	3	1
1	1	5	43	0.4	3	3	2	1	0	184.49	1	11	1	3	3	1	1	1	1	3	3
1	1	5	44	0.8	3	3	2	2	1	188.78	1	16	1	3	3	1	2	1	1	3	3
1	1	5	45	0.1	1	1	1	2	0	263.52	1	4	1	1	1	1	19	1	3	1	3
1	1	5	46	1.8	3	3	2	1	0	194.41	1	15	1	3	3	1	14	1	1	3	3
1	1	5	47	0.05	3	3	2	2	1	241.79	1	20	1	1	3	3	12	3	3	1	1
1	1	5	48	0.4	3	3	2	1	0	211.49	1	11	3	3	1	1	10	1	1	3	3
1	1	5	49	0.2	1	1	1	2	0	268	1	5	3	1	3	1	8	3	1	3	1
1	1	5	50	0.1	1	1	1	1	1	254.71	1	3	1	3	1	3	2	1	1	1	1
1	1	5	51	1.8	1	1	1	2	0	229.4	1	8	3	3	3	3	7	3	1	3	1
1	1	5	52	0.2	1	1	1	1	1	221.94	1	14	3	3	3	3	11	1	3	1	3
1	1	5	53	0.8	1	1	1	2	0	184.21	1	5	3	3	3	3	9	1	1	1	1
1	1	5	54	0.1	3	3	2	1	0	225.37	1	9	1	3	3	1	4	3	1	1	3
1	1	5	55	0.2	1	1	1	1	1	235.54	1	1	3	3	3	3	16	1	1	1	1
1	1	5	56	0.4	3	3	2	2	1	216.26	1	7	1	3	3	1	19	3	1	1	3
1	1	5	57	0.05	1	1	1	1	1	250.18	1	1	3	1	3	1	5	1	3	1	3
1	1	5	58	0.2	1	1	1	2	0	209.72	1	9	1	3	1	3	12	3	1	3	1
1	1	5	59	0.4	1	1	1	1	1	241.21	1	16	1	1	1	1	16	3	3	3	3
1	1	5	60	0.4	3	3	2	2	1	244.4	1	12	3	3	1	1	10	1	1	3	3
1	1	5	61	0.2	1	1	1	1	1	214	1	1	1	3	1	3	14	1	1	1	1
1	1	5	62	0.05	3	3	2	2	1	208.29	1	14	3	3	1	1	14	1	1	3	3
1	1	5	63	0.4	3	3	2	1	0	221.1	1	20	3	1	1	3	12	3	3	1	1
1	1	5	64	0.1	1	1	1	2	0	198.1	1	4	3	3	3	3	9	3	3	3	3
1	1	5	65	0.05	3	3	2	1	0	270.76	1	5	1	1	3	3	10	1	1	3	3
1	1	5	66	0.05	3	3	2	2	1	226.42	1	11	1	3	3	1	17	1	3	3	1
1	1	5	67	0.4	3	3	2	1	0	182.4	1	6	1	1	3	3	5	3	1	1	3
1	1	5	68	0.05	3	3	2	2	1	267.34	1	1	1	1	3	3	11	3	1	1	3
1	1	5	69	0.4	3	3	2	1	0	210.36	1	9	3	3	1	1	9	3	3	1	1
1	1	5	70	0.4	3	3	2	2	1	308.15	0	14	1	3	3	1	12	3	1	1	3
1	1	5	71	1.8	1	1	1	1	1	210.31	1	7	3	1	3	1	11	3	1	3	1
1	1	5	72	0.1	1	1	1	2	0	262.89	1	19	1	3	1	3	15	3	1	3	1
1	1	5	73	0.2	1	1	1	1	1	125.77	1	7	3	3	3	3	4	1	1	1	1
1	1	5	74	0.8	1	1	1	2	0	190.86	1	3	1	3	1	3	13	1	1	1	1
1	1	5	75	0.05	3	3	2	1	0	218.15	1	10	3	3	1	1	3	3	1	1	3
1	1	5	76	1.8	3	3	2	2	1	199.53	1	3	3	3	1	1	19	1	1	3	3
1	1	5	77	0.05	3	3	2	1	0	261.57	1	14	1	3	3	1	12	3	3	1	1
1	1	5	78	0.1	3	3	2	2	1	216.7	1	2	3	3	1	1	18	3	3	1	1
1	1	6	1	0.05	1	1	1	2	0	356.61	0	7	3	3	3	3	3	3	1	3	1
1	1	6	2	0.2	3	3	2	1	0	180.95	1	3	3	1	1	3	11	3	1	1	3
1	1	6	3	0.8	3	3	2	2	1	177.07	1	4	3	3	1	1	11	3	1	1	3
1	1	6	4	0.2	1	1	1	1	1	221.45	1	1	1	1	1	1	20	1	1	1	1
1	1	6	5	0.8	1	1	1	2	0	194.08	1	18	1	3	1	3	19	1	1	1	1
1	1	6	6	0.4	3	3	2	1	0	201.46	1	6	3	1	1	3	7	1	3	3	1
1	1	6	7	0.1	1	1	1	2	0	211.76	1	16	3	1	3	1	11	3	3	3	3
1	1	6	8	0.8	1	1	1	1	1	197.29	1	6	3	1	3	1	18	3	1	3	1
1	1	6	9	0.05	1	1	1	2	0	209.94	1	6	3	1	3	1	19	3	1	3	1
1	1	6	10	0.1	1	1	1	1	1	193.63	1	18	1	3	1	3	18	3	1	3	1
1	1	6	11	0.4	1	1	1	2	0	204.09	1	20	3	3	3	3	17	3	3	3	3
1	1	6	12	0.8	3	3	2	2	1	204.47	1	11	3	1	1	3	17	3	1	1	3
1	1	6	13	0.4	3	3	2	1	0	169.62	1	17	3	3	1	1	9	3	1	1	3
1	1	6	14	0.1	3	3	2	2	1	231.4	1	5	3	1	1	3	18	3	3	1	1
1	1	6	15	0.2	3	3	2	1	0	194.51	1	17	1	1	3	3	9	1	3	3	1
1	1	6	16	0.4	1	1	1	2	0	219.42	1	3	3	1	3	1	7	1	3	1	3
1	1	6	17	0.2	3	3	2	1	0	189.4	1	1	3	3	1	1	4	3	3	1	1
1	1	6	18	0.2	3	3	2	2	1	270.92	1	9	1	1	3	3	9	3	3	1	1
1	1	6	19	0.05	1	1	1	1	1	232.67	1	18	3	1	3	1	4	3	3	3	3
1	1	6	20	0.2	1	1	1	2	0	169.95	1	1	1	1	1	1	2	1	3	1	3
1	1	6	21	0.1	1	1	1	1	1	233.2	1	7	1	1	1	1	14	3	1	3	1
1	1	6	22	0.05	1	1	1	2	0	243.48	1	4	3	3	3	3	2	1	1	1	1
1	1	6	23	0.2	3	3	2	2	1	191.56	1	16	3	1	1	3	16	1	3	3	1
1	1	6	24	0.1	1	1	1	1	1	213.83	1	10	1	1	1	1	9	1	3	1	3
1	1	6	25	0.8	1	1	1	2	0	199.34	1	18	1	1	1	1	14	3	3	3	3
1	1	6	26	0.05	3	3	2	2	1	231.98	1	14	3	1	1	3	7	1	1	3	3
1	1	6	27	0.4	3	3	2	1	0	211.5	1	6	3	3	1	1	19	3	3	1	1
1	1	6	28	0.4	3	3	2	2	1	156.6	1	6	3	3	1	1	4	1	3	3	1
1	1	6	29	0.05	1	1	1	1	1	222.06	1	12	3	1	3	1	3	1	1	1	1
1	1	6	30	0.05	3	3	2	2	1	118.29	1	17	3	1	1	3	17	1	3	3	1
1	1	6	31	1.8	3	3	2	1	0	232.28	1	1	1	3	3	1	12	3	3	1	1
1	1	6	32	0.8	3	3	2	2	1	201.35	1	7	3	3	1	1	3	3	3	1	1
1	1	6	33	0.4	3	3	2	2	1	201.57	1	9	1	3	3	1	3	1	1	3	3
1	1	6	34	0.1	1	1	1	1	1	262.47	1	10	3	3	3	3	6	3	3	3	3
1	1	6	35	0.1	1	1	1	2	0	236.57	1	17	1	3	1	3	5	1	3	1	3
1	1	6	36	0.4	1	1	1	1	1	180.94	1	12	3	3	3	3	12	1	3	1	3
1	1	6	37	1.8	1	1	1	2	0	195.2	1	10	3	3	3	3	1	1	1	1	1
1	1	6	38	0.4	3	3	2	1	0	228.97	1	19	1	1	3	3	16	3	3	1	1
1	1	6	39	0.2	1	1	1	2	0	173.84	1	17	3	3	3	3	12	3	3	3	3
1	1	6	40	0.4	1	1	1	2	0	201.23	1	9	1	1	1	1	19	1	3	1	3
1	1	6	41	0.05	3	3	2	1	0	258.36	1	16	3	3	1	1	7	1	3	3	1
1	1	6	42	0.4	1	1	1	2	0	184.5	1	6	1	3	1	3	13	3	1	3	1
1	1	6	43	0.8	1	1	1	1	1	252.13	1	10	1	1	1	1	10	1	1	1	1
1	1	6	44	0.1	3	3	2	2	1	283.47	1	4	1	3	3	1	13	3	3	1	1
1	1	6	45	0.2	1	1	1	2	0	213.17	1	6	3	3	3	3	4	3	1	3	1
1	1	6	46	0.1	3	3	2	1	0	215.32	1	10	3	1	1	3	16	3	1	1	3
1	1	6	47	1.8	3	3	2	2	1	246.54	1	1	1	3	3	1	7	3	3	1	1
1	1	6	48	0.05	1	1	1	2	0	239.92	1	12	3	1	3	1	1	1	1	1	1
1	1	6	49	0.1	1	1	1	1	1	264.88	1	19	3	1	3	1	8	1	3	1	3
1	1	6	50	0.8	3	3	2	2	1	367.78	0	9	3	3	1	1	19	1	1	3	3
1	1	6	51	0.1	3	3	2	2	1	229.48	1	13	3	3	1	1	3	1	1	3	3
1	1	6	52	0.2	1	1	1	1	1	200	1	7	3	1	3	1	10	1	3	1	3
1	1	6	53	1.8	3	3	2	2	1	178.98	1	7	1	3	3	1	5	1	1	3	3
1	1	6	54	0.8	3	3	2	1	0	243.03	1	11	3	3	1	1	3	3	3	1	1
1	1	6	55	1.8	3	3	2	2	1	198.91	1	3	3	3	1	1	7	3	3	1	1
1	1	6	56	0.05	3	3	2	2	1	244.43	1	10	3	3	1	1	9	3	1	1	3
1	1	6	57	1.8	1	1	1	1	1	223.65	1	20	3	3	3	3	17	1	1	1	1
1	1	6	58	0.4	1	1	1	2	0	198.34	1	12	1	3	1	3	8	1	3	1	3
1	1	6	59	0.8	1	1	1	2	0	215.02	1	17	3	1	3	1	7	1	1	1	1
1	1	6	60	1.8	1	1	1	1	1	195.98	1	9	3	3	3	3	20	3	3	3	3
1	1	6	61	0.05	1	1	1	1	1	285.68	1	1	1	3	1	3	20	3	1	3	1
1	1	6	62	1.8	1	1	1	2	0	201.15	1	14	3	1	3	1	11	1	1	1	1
1	1	6	63	1.8	1	1	1	2	0	204.4	1	15	3	1	3	1	12	3	1	3	1
1	1	6	64	1.8	3	3	2	1	0	269.75	1	6	1	1	3	3	5	1	1	3	3
1	1	6	65	0.8	1	1	1	1	1	291.91	1	19	3	1	3	1	14	3	1	3	1
1	1	6	66	0.2	3	3	2	1	0	260.46	1	10	1	3	3	1	5	3	3	1	1
1	1	6	67	0.8	1	1	1	1	1	263.45	1	13	1	3	1	3	6	1	3	1	3
1	1	6	68	0.2	3	3	2	2	1	214.78	1	16	1	1	3	3	8	3	1	1	3
1	1	6	69	0.05	3	3	2	2	1	277.37	1	10	1	1	3	3	7	3	3	1	1
1	1	6	70	0.1	1	1	1	2	0	236.12	1	4	1	1	1	1	7	3	1	3	1
1	1	6	71	0.4	3	3	2	2	1	213.54	1	9	3	1	1	3	10	3	1	1	3
1	1	6	72	1.8	3	3	2	1	0	239.2	1	17	3	3	1	1	1	1	3	3	1
1	1	6	73	1.8	1	1	1	2	0	202.74	1	12	1	1	1	1	20	1	1	1	1
1	1	6	74	0.05	1	1	1	1	1	313.36	0	3	3	3	3	3	12	1	3	1	3
1	1	6	75	0.8	3	3	2	2	1	213.04	1	20	3	1	1	3	19	1	1	3	3
1	1	6	76	0.2	1	1	1	1	1	207.06	1	6	3	1	3	1	4	1	3	1	3
1	1	6	77	0.1	1	1	1	2	0	212.24	1	18	1	1	1	1	12	3	1	3	1
1	1	6	78	1.8	1	1	1	1	1	205.19	1	9	3	1	3	1	14	1	3	1	3
1	1	7	1	0.8	3	3	2	2	1	177.98	1	9	3	1	1	3	17	1	1	3	3
1	1	7	2	0.1	3	3	2	1	0	298.16	1	10	3	3	1	1	4	3	1	1	3
1	1	7	3	0.1	1	1	1	2	0	249.88	1	6	1	3	1	3	19	1	1	1	1
1	1	7	4	0.1	1	1	1	1	1	250.92	1	14	1	1	1	1	1	3	3	3	3
1	1	7	5	0.2	1	1	99	99	99	99	99	18	3	3	3	3	4	1	1	1	1
1	1	7	6	0.1	1	1	1	1	1	423.95	0	6	1	1	1	1	8	1	1	1	1
1	1	7	7	0.4	3	3	2	2	1	209.73	1	1	1	3	3	1	11	1	3	3	1
1	1	7	8	0.4	1	1	1	1	1	245.93	1	13	3	1	3	1	9	3	3	3	3
1	1	7	9	0.2	1	1	1	1	1	287.57	1	1	3	1	3	1	18	3	1	3	1
1	1	7	10	0.05	1	1	1	1	1	294.36	1	20	3	3	3	3	16	1	3	1	3
1	1	7	11	1.8	3	3	2	2	1	210.92	1	16	3	1	1	3	16	1	1	3	3
1	1	7	12	0.8	1	1	1	1	1	209.82	1	8	1	3	1	3	6	1	3	1	3
1	1	7	13	0.4	3	3	2	1	0	209.61	1	20	1	3	3	1	11	3	1	1	3
1	1	7	14	0.1	1	1	1	2	0	342.44	0	14	3	1	3	1	18	1	3	1	3
1	1	7	15	0.2	1	1	1	1	1	206.7	1	13	3	3	3	3	7	1	3	1	3
1	1	7	16	0.05	1	1	1	1	1	317.25	0	2	1	3	1	3	15	3	1	3	1
1	1	7	17	0.8	1	1	1	1	1	201.33	1	18	1	3	1	3	3	1	1	1	1
1	1	7	18	0.1	3	3	2	2	1	570.85	0	8	3	1	1	3	19	3	3	1	1
1	1	7	19	0.05	1	1	1	1	1	317.77	0	8	1	3	1	3	6	3	3	3	3
1	1	7	20	0.05	1	1	1	1	1	203.95	1	13	3	1	3	1	14	3	3	3	3
1	1	7	21	1.8	1	1	1	1	1	197.79	1	3	3	3	3	3	10	1	3	1	3
1	1	7	22	1.8	1	1	1	1	1	195.63	1	2	1	3	1	3	1	3	1	3	1
1	1	7	23	1.8	3	3	2	2	1	200.58	1	17	1	1	3	3	1	1	1	3	3
1	1	7	24	0.05	1	1	1	1	1	290.7	1	7	3	1	3	1	18	1	1	1	1
1	1	7	25	0.8	1	1	1	1	1	206.26	1	2	3	1	3	1	4	1	3	1	3
1	1	7	26	0.1	1	1	1	2	0	327.91	0	5	1	3	1	3	6	3	3	3	3
1	1	7	27	1.8	3	3	99	99	99	99	99	5	1	1	3	3	12	3	1	1	3
1	1	7	28	1.8	3	3	2	2	1	188.01	1	15	3	1	1	3	20	1	1	3	3
1	1	7	29	0.2	1	1	1	1	1	56.08	2	4	3	3	3	3	10	1	3	1	3
1	1	7	30	0.8	3	3	2	2	1	271.5	1	20	1	3	3	1	13	3	1	1	3
1	1	7	31	0.2	1	1	1	1	1	235.47	1	11	1	1	1	1	14	3	3	3	3
1	1	7	32	0.8	3	3	2	2	1	231.48	1	18	3	3	1	1	18	1	3	3	1
1	1	7	33	1.8	1	1	99	99	99	99	99	6	1	3	1	3	14	3	3	3	3
1	1	7	34	0.2	3	3	2	2	1	471.6	0	4	3	3	1	1	17	3	1	1	3
1	1	7	35	0.2	1	1	1	2	0	289.92	1	13	1	3	1	3	3	3	1	3	1
1	1	7	36	0.2	3	3	2	2	1	220.55	1	1	3	3	1	1	15	3	3	1	1
1	1	7	37	1.8	3	3	2	2	1	214.44	1	14	3	1	1	3	2	1	3	3	1
1	1	7	38	0.1	1	1	1	1	1	284.47	1	16	1	1	1	1	16	1	3	1	3
1	1	7	39	0.05	3	3	2	1	0	329.19	0	1	1	1	3	3	2	1	3	3	1
1	1	7	40	1.8	1	1	1	1	1	252.74	1	6	3	3	3	3	8	1	1	1	1
1	1	7	41	0.4	3	3	2	2	1	242.73	1	16	1	1	3	3	5	3	3	1	1
1	1	7	42	0.4	3	3	2	2	1	279.46	1	16	3	3	1	1	4	1	3	3	1
1	1	7	43	0.05	3	3	2	2	1	395.62	0	14	3	1	1	3	7	3	1	1	3
1	1	7	44	0.8	1	1	1	2	0	240.72	1	15	3	1	3	1	2	3	1	3	1
1	1	7	45	1.8	3	3	2	2	1	185.89	1	15	3	3	1	1	20	3	1	1	3
1	1	7	46	0.4	3	3	2	2	1	220.95	1	14	3	3	1	1	6	1	1	3	3
1	1	7	47	0.1	3	3	2	2	1	319.07	0	1	1	3	3	1	16	1	1	3	3
1	1	7	48	0.4	1	1	1	1	1	235.04	1	3	1	3	1	3	19	1	3	1	3
1	1	7	49	0.05	3	3	2	2	1	332.95	0	5	1	3	3	1	8	1	3	3	1
1	1	7	50	0.2	3	3	2	2	1	311.6	0	20	3	1	1	3	19	1	1	3	3
1	1	7	51	0.8	3	3	2	2	1	197.44	1	6	3	1	1	3	18	1	3	3	1
1	1	7	52	0.8	1	1	1	1	1	189.7	1	16	3	1	3	1	17	3	1	3	1
1	1	7	53	0.2	3	3	2	2	1	183.52	1	9	3	1	1	3	18	3	3	1	1
1	1	7	54	0.1	3	3	2	2	1	317.45	0	14	1	3	3	1	13	1	3	3	1
1	1	7	55	0.8	3	3	2	2	1	213.48	1	19	3	1	1	3	4	1	3	3	1
1	1	7	56	0.8	1	1	1	1	1	253.91	1	18	3	1	3	1	14	3	3	3	3
1	1	7	57	0.4	3	3	2	2	1	252.35	1	20	3	1	1	3	11	1	1	3	3
1	1	7	58	0.4	1	1	1	1	1	246.49	1	16	1	1	1	1	14	3	1	3	1
1	1	7	59	0.4	1	1	1	1	1	233.5	1	13	3	1	3	1	13	3	1	3	1
1	1	7	60	0.2	1	1	1	1	1	275.49	1	17	3	3	3	3	15	3	3	3	3
1	1	7	61	0.4	3	3	2	2	1	230.95	1	15	3	3	1	1	12	3	1	1	3
1	1	7	62	0.2	3	3	2	2	1	310.63	0	5	3	1	1	3	16	3	1	1	3
1	1	7	63	0.4	3	3	2	1	0	255.99	1	20	3	3	1	1	7	1	3	3	1
1	1	7	64	0.05	3	3	2	2	1	387.37	0	12	1	1	3	3	1	3	3	1	1
1	1	7	65	0.1	1	1	1	1	1	272.65	1	13	1	1	1	1	1	1	1	1	1
1	1	7	66	0.4	3	3	2	2	1	196.62	1	5	1	1	3	3	11	1	1	3	3
1	1	7	67	0.05	1	1	1	2	0	316.44	0	2	3	1	3	1	7	1	3	1	3
1	1	7	68	0.1	3	3	2	2	1	300.38	0	15	3	3	1	1	3	3	3	1	1
1	1	7	69	0.8	1	1	1	1	1	190.93	1	1	3	3	3	3	5	1	3	1	3
1	1	7	70	0.8	1	1	1	1	1	185.34	1	2	1	3	1	3	11	1	1	1	1
1	1	7	71	1.8	1	1	1	1	1	246.13	1	15	1	3	1	3	12	3	3	3	3
1	1	7	72	1.8	1	1	1	1	1	175.47	1	6	3	1	3	1	5	1	1	1	1
1	1	7	73	0.05	3	3	2	2	1	294.7	1	11	1	3	3	1	6	3	3	1	1
1	1	7	74	1.8	3	3	2	2	1	192.4	1	8	1	3	3	1	1	1	3	3	1
1	1	7	75	0.2	1	1	1	2	0	238.54	1	1	3	3	3	3	11	1	1	1	1
1	1	7	76	0.1	1	1	1	1	1	360.56	0	12	3	3	3	3	1	3	3	3	3
1	1	7	77	0.05	3	3	2	2	1	336.61	0	7	1	3	3	1	15	1	3	3	1
1	1	7	78	0.05	3	3	2	2	1	357.78	0	13	1	1	3	3	16	1	3	3	1
1	1	8	1	0.4	1	1	1	1	1	219.32	1	7	1	1	1	1	17	3	3	3	3
1	1	8	2	0.1	1	1	1	1	1	286.65	1	17	3	3	3	3	17	1	1	1	1
1	1	8	3	0.4	3	3	2	2	1	193.7	1	6	1	1	3	3	1	3	3	1	1
1	1	8	4	0.1	1	1	1	2	0	261.27	1	5	3	3	3	3	4	1	1	1	1
1	1	8	5	0.2	1	1	1	1	1	288.76	1	17	1	3	1	3	17	1	3	1	3
1	1	8	6	0.4	1	1	1	1	1	201.78	1	19	3	3	3	3	7	1	1	1	1
1	1	8	7	0.8	3	3	99	99	99	99	99	8	1	1	3	3	4	3	1	1	3
1	1	8	8	0.2	1	1	1	1	1	324.57	0	7	1	3	1	3	8	3	1	3	1
1	1	8	9	0.2	3	3	2	2	1	192.09	1	20	1	3	3	1	20	3	3	1	1
1	1	8	10	0.2	1	1	1	1	1	260.51	1	9	3	3	3	3	19	1	1	1	1
1	1	8	11	0.8	3	3	99	99	99	99	99	10	3	3	1	1	5	3	3	1	1
1	1	8	12	1.8	1	1	1	1	1	201.69	1	1	1	3	1	3	19	1	1	1	1
1	1	8	13	0.1	3	3	2	2	1	349.33	0	13	1	1	3	3	17	3	1	1	3
1	1	8	14	1.8	3	3	2	2	1	192.96	1	19	1	1	3	3	7	3	1	1	3
1	1	8	15	0.1	3	3	2	1	0	294.54	1	11	3	1	1	3	18	3	3	1	1
1	1	8	16	0.4	1	1	1	1	1	245.04	1	10	1	3	1	3	14	1	3	1	3
1	1	8	17	0.1	1	1	1	1	1	344.25	0	9	3	3	3	3	19	1	1	1	1
1	1	8	18	0.4	1	1	1	1	1	247.43	1	2	3	3	3	3	3	3	1	3	1
1	1	8	19	0.05	1	1	1	2	0	316.1	0	4	1	3	1	3	18	3	3	3	3
1	1	8	20	0.8	1	1	1	1	1	220.84	1	9	1	3	1	3	6	1	1	1	1
1	1	8	21	1.8	3	3	2	1	0	229.95	1	12	3	3	1	1	8	3	3	1	1
1	1	8	22	0.4	3	3	2	2	1	257.43	1	4	3	1	1	3	19	1	3	3	1
1	1	8	23	0.1	3	3	2	1	0	288.5	1	16	1	3	3	1	7	1	3	3	1
1	1	8	24	1.8	3	3	2	2	1	195.58	1	3	3	1	1	3	1	3	1	1	3
1	1	8	25	0.4	1	1	1	1	1	220.95	1	8	3	1	3	1	1	3	3	3	3
1	1	8	26	0.8	1	1	1	1	1	211.26	1	10	1	1	1	1	13	3	3	3	3
1	1	8	27	1.8	3	3	2	2	1	193.11	1	20	3	1	1	3	13	3	3	1	1
1	1	8	28	0.2	1	1	1	2	0	290.69	1	3	1	1	1	1	3	1	3	1	3
1	1	8	29	0.05	3	3	2	1	0	378.21	0	2	3	1	1	3	7	1	3	3	1
1	1	8	30	0.05	1	1	1	1	1	382.11	0	8	3	3	3	3	19	3	1	3	1
1	1	8	31	0.8	1	1	1	1	1	232.44	1	7	1	3	1	3	5	3	1	3	1
1	1	8	32	0.2	1	1	1	1	1	298.49	1	15	3	1	3	1	1	3	1	3	1
1	1	8	33	0.1	1	1	1	2	0	267.32	1	4	3	3	3	3	16	3	1	3	1
1	1	8	34	0.1	1	1	1	1	1	324.19	0	5	1	3	1	3	19	3	3	3	3
1	1	8	35	0.4	3	3	2	2	1	210.91	1	1	3	1	1	3	19	3	3	1	1
1	1	8	36	1.8	3	3	2	2	1	223.15	1	20	3	1	1	3	2	1	3	3	1
1	1	8	37	0.8	1	1	1	1	1	233.78	1	3	1	3	1	3	6	1	3	1	3
1	1	8	38	0.1	3	3	2	2	1	310.63	0	11	1	1	3	3	16	1	3	3	1
1	1	8	39	0.2	3	3	2	2	1	245.98	1	11	1	3	3	1	16	3	1	1	3
1	1	8	40	0.1	3	3	2	1	0	163.76	1	10	1	3	3	1	14	3	1	1	3
1	1	8	41	0.05	1	1	1	1	1	393.54	0	7	1	3	1	3	7	3	3	3	3
1	1	8	42	0.1	3	3	2	2	1	266.84	1	3	3	3	1	1	19	3	1	1	3
1	1	8	43	0.4	3	3	2	2	1	216.21	1	6	3	3	1	1	1	1	1	3	3
1	1	8	44	0.1	3	3	2	2	1	322.76	0	15	3	1	1	3	11	3	3	1	1
1	1	8	45	0.8	1	1	1	1	1	245.6	1	2	3	3	3	3	7	3	3	3	3
1	1	8	46	1.8	1	1	1	1	1	225.76	1	4	1	1	1	1	12	3	3	3	3
1	1	8	47	0.05	1	1	1	1	1	331.47	0	5	1	1	1	1	9	1	1	1	1
1	1	8	48	0.05	1	1	1	2	0	333.54	0	19	1	3	1	3	13	3	3	3	3
1	1	8	49	0.8	1	1	1	1	1	232.85	1	16	1	3	1	3	16	1	1	1	1
1	1	8	50	0.1	3	3	2	2	1	358.6	0	10	3	1	1	3	9	1	1	3	3
1	1	8	51	1.8	3	3	2	2	1	236.72	1	8	1	1	3	3	19	1	1	3	3
1	1	8	52	0.05	3	3	2	2	1	346.08	0	6	1	1	3	3	2	3	1	1	3
1	1	8	53	0.8	3	3	2	2	1	225.75	1	12	3	3	1	1	8	1	1	3	3
1	1	8	54	1.8	3	3	2	2	1	183.56	1	6	3	1	1	3	7	3	3	1	1
1	1	8	55	1.8	3	3	2	2	1	210.58	1	11	3	3	1	1	14	3	3	1	1
1	1	8	56	0.05	1	1	1	1	1	339.91	0	4	3	3	3	3	18	1	1	1	1
1	1	8	57	1.8	1	1	99	99	99	99	99	12	3	1	3	1	9	1	1	1	1
1	1	8	58	0.8	3	3	2	2	1	260.14	1	10	3	1	1	3	16	1	3	3	1
1	1	8	59	0.2	3	3	2	2	1	292.5	1	6	1	3	3	1	9	3	3	1	1
1	1	8	60	0.2	3	3	2	2	1	319.09	0	18	3	1	1	3	5	3	3	1	1
1	1	8	61	0.05	3	3	2	2	1	344.49	0	19	1	3	3	1	4	3	1	1	3
1	1	8	62	0.4	3	3	2	2	1	202.31	1	7	1	3	3	1	11	1	3	3	1
1	1	8	63	0.4	3	3	2	2	1	218.14	1	14	3	3	1	1	15	3	1	1	3
1	1	8	64	0.05	1	1	1	2	0	306.72	0	19	1	3	1	3	10	3	3	3	3
1	1	8	65	0.4	3	3	2	2	1	228.75	1	17	3	3	1	1	18	1	3	3	1
1	1	8	66	0.05	3	3	2	1	0	434.96	0	18	3	3	1	1	9	3	3	1	1
1	1	8	67	0.4	3	3	2	1	0	196.79	1	11	3	3	1	1	4	1	1	3	3
1	1	8	68	0.8	3	3	2	2	1	191.84	1	3	1	3	3	1	19	1	3	3	1
1	1	8	69	0.2	3	3	2	2	1	257.24	1	13	3	1	1	3	3	3	3	1	1
1	1	8	70	1.8	3	3	2	2	1	182.33	1	16	1	3	3	1	10	1	3	3	1
1	1	8	71	1.8	1	1	1	1	1	205.54	1	8	3	3	3	3	6	1	1	1	1
1	1	8	72	0.2	1	1	1	1	1	261.51	1	8	1	1	1	1	8	1	1	1	1
1	1	8	73	0.05	3	3	2	1	0	318.55	0	20	3	1	1	3	17	3	3	1	1
1	1	8	74	0.8	1	1	1	1	1	209.16	1	16	1	1	1	1	15	3	3	3	3
1	1	8	75	0.05	1	1	1	1	1	397.4	0	13	3	3	3	3	9	3	1	3	1
1	1	8	76	0.2	3	3	2	2	1	216.05	1	7	3	3	1	1	3	3	1	1	3
1	1	8	77	0.2	1	1	1	1	1	369.89	0	16	1	1	1	1	20	3	3	3	3
1	1	8	78	0.8	1	1	1	1	1	195.48	1	11	3	3	3	3	10	1	3	1	3
1	1	9	1	0.1	3	3	2	2	1	347.1	0	17	3	1	1	3	4	1	1	3	3
1	1	9	2	1.8	3	3	2	2	1	183.9	1	6	1	1	3	3	16	3	1	1	3
1	1	9	3	0.8	3	3	2	2	1	184.26	1	15	3	1	1	3	20	3	1	1	3
1	1	9	4	1.8	3	3	2	2	1	169.35	1	12	1	3	3	1	4	3	1	1	3
1	1	9	5	0.05	3	3	2	2	1	337.01	0	12	1	3	3	1	12	1	3	3	1
1	1	9	6	0.4	3	3	2	1	0	254.91	1	15	3	1	1	3	15	3	3	1	1
1	1	9	7	1.8	3	3	2	2	1	183.37	1	10	3	3	1	1	1	3	3	1	1
1	1	9	8	0.4	3	3	2	2	1	204.97	1	2	3	3	1	1	19	1	3	3	1
1	1	9	9	0.1	3	3	2	2	1	281.17	1	6	1	1	3	3	12	1	1	3	3
1	1	9	10	0.2	3	3	2	2	1	252	1	10	3	3	1	1	4	1	3	3	1
1	1	9	11	0.2	3	3	2	2	1	267.04	1	9	1	3	3	1	15	1	3	3	1
1	1	9	12	0.05	1	1	1	2	0	347.79	0	20	3	3	3	3	10	3	1	3	1
1	1	9	13	0.8	1	1	1	1	1	201.85	1	3	1	1	1	1	14	1	3	1	3
1	1	9	14	0.1	1	1	1	1	1	348.96	0	16	3	1	3	1	5	3	1	3	1
1	1	9	15	0.4	1	1	1	1	1	227.23	1	11	1	1	1	1	18	3	3	3	3
1	1	9	16	0.1	3	3	2	2	1	277.32	1	11	3	3	1	1	19	3	3	1	1
1	1	9	17	0.8	1	1	1	1	1	196.24	1	14	1	3	1	3	15	3	3	3	3
1	1	9	18	0.05	3	3	2	2	1	304.32	0	17	3	3	1	1	4	1	1	3	3
1	1	9	19	0.2	3	3	2	2	1	224.97	1	14	3	3	1	1	8	1	3	3	1
1	1	9	20	0.4	3	3	2	2	1	220.84	1	9	1	3	3	1	4	1	1	3	3
1	1	9	21	0.05	3	3	2	2	1	317.37	0	17	3	1	1	3	16	1	1	3	3
1	1	9	22	0.4	1	1	1	1	1	239.51	1	7	3	3	3	3	10	1	3	1	3
1	1	9	23	0.05	1	1	1	1	1	432.82	0	11	3	1	3	1	8	1	3	1	3
1	1	9	24	0.05	1	1	1	1	1	327.42	0	9	3	3	3	3	18	3	1	3	1
1	1	9	25	0.4	1	1	1	1	1	206.41	1	16	3	3	3	3	2	1	3	1	3
1	1	9	26	0.1	3	3	2	2	1	322.45	0	9	1	1	3	3	12	1	3	3	1
1	1	9	27	0.2	1	1	1	1	1	287.73	1	2	3	1	3	1	16	3	1	3	1
1	1	9	28	1.8	1	1	1	1	1	223.03	1	8	3	1	3	1	4	3	3	3	3
1	1	9	29	0.8	1	1	1	1	1	225.87	1	5	3	1	3	1	1	3	3	3	3
1	1	9	30	0.1	1	1	1	1	1	327.14	0	16	3	3	3	3	12	3	3	3	3
1	1	9	31	0.8	1	1	1	1	1	210.7	1	10	1	1	1	1	2	3	1	3	1
1	1	9	32	0.8	1	1	1	1	1	200.13	1	4	3	1	3	1	6	1	3	1	3
1	1	9	33	0.1	3	3	2	2	1	391.23	0	17	1	1	3	3	18	1	3	3	1
1	1	9	34	1.8	1	1	1	1	1	215.86	1	5	1	3	1	3	4	1	1	1	1
1	1	9	35	0.2	1	1	1	1	1	284.76	1	16	3	3	3	3	1	1	1	1	1
1	1	9	36	0.4	1	1	1	1	1	218.17	1	12	1	3	1	3	13	1	3	1	3
1	1	9	37	0.2	3	3	2	2	1	286.09	1	18	3	1	1	3	5	3	1	1	3
1	1	9	38	1.8	1	1	1	1	1	186.99	1	9	1	3	1	3	12	1	1	1	1
1	1	9	39	0.2	1	1	1	1	1	261.6	1	15	3	1	3	1	14	3	1	3	1
1	1	9	40	0.1	3	3	2	2	1	300.36	0	13	3	1	1	3	11	1	3	3	1
1	1	9	41	0.1	1	1	1	1	1	161.81	1	17	3	3	3	3	2	1	3	1	3
1	1	9	42	0.2	1	1	1	1	1	251.93	1	20	3	1	3	1	6	3	1	3	1
1	1	9	43	0.1	1	1	1	1	1	176.3	1	16	1	3	1	3	16	3	3	3	3
1	1	9	44	0.8	1	1	1	1	1	229.38	1	4	3	1	3	1	10	3	1	3	1
1	1	9	45	0.8	1	1	1	1	1	227.49	1	14	1	3	1	3	10	3	1	3	1
1	1	9	46	1.8	3	3	2	2	1	197.61	1	10	1	3	3	1	7	3	1	1	3
1	1	9	47	1.8	1	1	1	1	1	186.87	1	12	3	3	3	3	6	3	1	3	1
1	1	9	48	0.05	3	3	2	2	1	432.91	0	11	1	3	3	1	12	3	1	1	3
1	1	9	49	1.8	3	3	2	2	1	196.4	1	2	3	3	1	1	10	3	1	1	3
1	1	9	50	0.2	1	1	1	1	1	281.43	1	20	1	1	1	1	14	1	1	1	1
1	1	9	51	0.2	1	1	1	1	1	261.09	1	10	3	3	3	3	19	3	3	3	3
1	1	9	52	0.05	1	1	1	1	1	339.54	0	9	1	3	1	3	17	3	1	3	1
1	1	9	53	0.05	3	3	2	1	0	414.21	0	7	1	1	3	3	14	1	3	3	1
1	1	9	54	0.4	1	1	1	1	1	194.44	1	3	3	1	3	1	12	3	1	3	1
1	1	9	55	0.4	1	1	1	1	1	227.43	1	3	3	1	3	1	14	3	1	3	1
1	1	9	56	0.4	3	3	2	2	1	207.45	1	3	3	3	1	1	7	1	3	3	1
1	1	9	57	0.05	1	1	1	1	1	306.85	0	18	3	1	3	1	9	3	3	3	3
1	1	9	58	0.4	3	3	2	2	1	243.55	1	2	1	3	3	1	13	3	1	1	3
1	1	9	59	0.2	1	1	1	1	1	275.01	1	7	1	1	1	1	15	3	1	3	1
1	1	9	60	0.4	3	3	2	2	1	212.04	1	11	3	1	1	3	15	1	3	3	1
1	1	9	61	0.8	3	3	2	2	1	195.79	1	3	1	3	3	1	14	1	3	3	1
1	1	9	62	0.8	3	3	2	2	1	228.45	1	5	3	1	1	3	13	3	1	1	3
1	1	9	63	0.4	1	1	1	1	1	190.95	1	9	1	1	1	1	2	3	1	3	1
1	1	9	64	1.8	1	1	1	1	1	180.28	1	12	3	1	3	1	15	3	1	3	1
1	1	9	65	1.8	1	1	1	1	1	197.64	1	17	3	3	3	3	16	1	1	1	1
1	1	9	66	0.1	1	1	1	1	1	295.33	1	8	3	1	3	1	10	1	3	1	3
1	1	9	67	0.05	1	1	1	1	1	293.83	1	16	1	3	1	3	7	3	3	3	3
1	1	9	68	0.05	3	3	2	2	1	307.17	0	7	1	3	3	1	8	3	1	1	3
1	1	9	69	1.8	3	3	2	2	1	184.4	1	20	1	1	3	3	2	1	1	3	3
1	1	9	70	0.05	1	1	1	1	1	314.3	0	15	3	1	3	1	14	1	3	1	3
1	1	9	71	0.2	3	3	2	2	1	260.96	1	6	3	3	1	1	6	3	3	1	1
1	1	9	72	0.8	1	1	1	1	1	194.87	1	20	1	3	1	3	4	3	1	3	1
1	1	9	73	0.2	1	1	1	1	1	255.16	1	18	3	1	3	1	18	1	3	1	3
1	1	9	74	0.1	1	1	1	2	0	308.21	0	7	3	1	3	1	1	3	1	3	1
1	1	9	75	0.1	1	1	1	1	1	275.93	1	6	1	3	1	3	12	1	3	1	3
1	1	9	76	0.8	1	1	1	1	1	247.34	1	16	3	3	3	3	13	3	1	3	1
1	1	9	77	0.8	1	1	1	1	1	201.31	1	19	3	3	3	3	16	1	1	1	1
1	1	9	78	1.8	3	3	2	2	1	185.03	1	15	1	1	3	3	16	3	1	1	3
1	1	10	1	0.05	3	3	2	1	0	353.63	0	4	3	1	1	3	13	3	1	1	3
1	1	10	2	1.8	1	1	1	1	1	180.73	1	13	1	3	1	3	17	3	1	3	1
1	1	10	3	0.2	1	1	1	1	1	244.13	1	9	1	3	1	3	19	3	3	3	3
1	1	10	4	0.4	1	1	1	1	1	206.97	1	2	3	3	3	3	4	3	3	3	3
1	1	10	5	1.8	3	3	2	2	1	186.83	1	14	3	3	1	1	20	3	1	1	3
1	1	10	6	0.1	1	1	1	1	1	305.11	0	15	3	3	3	3	3	1	3	1	3
1	1	10	7	0.05	1	1	1	1	1	335.66	0	7	1	1	1	1	14	1	1	1	1
1	1	10	8	0.1	3	3	2	2	1	251.77	1	8	3	1	1	3	19	3	1	1	3
1	1	10	9	0.2	3	3	2	2	1	265.48	1	11	3	1	1	3	16	1	3	3	1
1	1	10	10	1.8	1	1	1	1	1	217.47	1	3	3	3	3	3	5	1	3	1	3
1	1	10	11	0.4	1	1	1	1	1	203.52	1	6	3	3	3	3	3	1	1	1	1
1	1	10	12	0.2	3	3	2	2	1	255.77	1	13	3	3	1	1	12	3	3	1	1
1	1	10	13	0.1	3	3	2	2	1	506.04	0	10	3	1	1	3	11	3	3	1	1
1	1	10	14	0.4	3	3	2	1	0	237.62	1	12	3	1	1	3	14	3	3	1	1
1	1	10	15	1.8	3	3	2	2	1	232.23	1	14	1	1	3	3	4	3	3	1	1
1	1	10	16	0.05	1	1	1	1	1	320.92	0	20	3	3	3	3	2	1	1	1	1
1	1	10	17	0.4	1	1	1	1	1	199.85	1	3	1	3	1	3	7	3	3	3	3
1	1	10	18	0.8	3	3	2	2	1	197.83	1	4	3	3	1	1	6	1	3	3	1
1	1	10	19	0.8	1	1	1	1	1	199.17	1	12	1	1	1	1	14	1	3	1	3
1	1	10	20	0.2	3	3	2	2	1	283.02	1	7	3	1	1	3	14	3	3	1	1
1	1	10	21	1.8	1	1	1	1	1	210.01	1	12	3	1	3	1	19	1	1	1	1
1	1	10	22	0.8	1	1	1	1	1	187.08	1	9	3	3	3	3	9	1	3	1	3
1	1	10	23	0.05	3	3	2	2	1	341.47	0	3	1	3	3	1	8	1	1	3	3
1	1	10	24	1.8	1	1	1	2	0	194.89	1	11	3	3	3	3	7	3	1	3	1
1	1	10	25	1.8	3	3	2	2	1	206.39	1	3	3	1	1	3	17	1	3	3	1
1	1	10	26	0.4	3	3	2	2	1	235.37	1	1	1	1	3	3	12	1	3	3	1
1	1	10	27	1.8	3	3	2	2	1	225.73	1	16	1	3	3	1	7	1	1	3	3
1	1	10	28	1.8	3	3	2	2	1	218.04	1	10	3	3	1	1	5	1	1	3	3
1	1	10	29	0.05	1	1	1	2	0	330.35	0	7	1	3	1	3	7	3	3	3	3
1	1	10	30	0.2	1	1	1	1	1	315.96	0	20	3	1	3	1	3	1	3	1	3
1	1	10	31	0.4	3	3	2	2	1	207.09	1	2	3	3	1	1	16	3	3	1	1
1	1	10	32	0.4	3	3	2	2	1	213.46	1	2	1	3	3	1	16	1	1	3	3
1	1	10	33	0.05	3	3	2	2	1	379.76	0	15	1	3	3	1	17	1	1	3	3
1	1	10	34	0.4	3	3	2	2	1	221.92	1	19	1	1	3	3	6	1	1	3	3
1	1	10	35	0.2	1	1	1	1	1	289.71	1	12	3	3	3	3	9	3	1	3	1
1	1	10	36	0.4	1	1	1	1	1	205.38	1	18	1	3	1	3	7	1	3	1	3
1	1	10	37	0.2	3	3	2	2	1	293.07	1	6	3	1	1	3	2	3	1	1	3
1	1	10	38	0.8	3	3	2	2	1	202.45	1	2	1	3	3	1	9	1	1	3	3
1	1	10	39	0.2	1	1	1	1	1	295.99	1	12	1	1	1	1	19	3	1	3	1
1	1	10	40	0.4	1	1	1	1	1	251.38	1	3	1	1	1	1	19	1	1	1	1
1	1	10	41	0.1	3	3	2	2	1	329.05	0	10	1	3	3	1	4	3	1	1	3
1	1	10	42	0.05	1	1	1	2	0	350.47	0	11	3	1	3	1	6	3	1	3	1
1	1	10	43	0.1	3	3	2	1	0	354.67	0	19	3	3	1	1	6	1	3	3	1
1	1	10	44	0.2	3	3	2	2	1	306.91	0	1	1	1	3	3	10	1	3	3	1
1	1	10	45	0.1	1	1	1	1	1	201.81	1	5	3	1	3	1	11	3	1	3	1
1	1	10	46	0.8	3	3	2	2	1	142.19	1	9	3	1	1	3	1	1	1	3	3
1	1	10	47	0.1	1	1	1	1	1	289.23	1	16	1	1	1	1	15	3	3	3	3
1	1	10	48	0.1	3	3	2	2	1	289.78	1	7	3	1	1	3	6	3	1	1	3
1	1	10	49	0.8	3	3	2	2	1	201.35	1	13	3	3	1	1	5	1	3	3	1
1	1	10	50	0.05	1	1	1	1	1	334.62	0	17	3	1	3	1	8	3	1	3	1
1	1	10	51	0.1	1	1	1	1	1	254.11	1	13	3	1	3	1	7	1	1	1	1
1	1	10	52	0.4	1	1	1	1	1	200.19	1	2	1	3	1	3	6	1	3	1	3
1	1	10	53	0.2	1	1	1	1	1	252.56	1	2	3	3	3	3	2	3	3	3	3
1	1	10	54	0.8	3	3	2	2	1	196.2	1	4	1	3	3	1	1	3	1	1	3
1	1	10	55	0.05	1	1	1	2	0	341.03	0	15	1	1	1	1	17	3	3	3	3
1	1	10	56	1.8	1	1	1	1	1	192.5	1	13	3	1	3	1	10	3	3	3	3
1	1	10	57	0.4	3	3	2	2	1	221.15	1	13	1	1	3	3	16	1	3	3	1
1	1	10	58	0.1	1	1	1	1	1	265.49	1	8	1	1	1	1	19	1	1	1	1
1	1	10	59	0.4	1	1	1	1	1	255.38	1	13	3	1	3	1	17	3	1	3	1
1	1	10	60	0.8	3	3	2	2	1	222.72	1	6	3	3	1	1	11	3	3	1	1
1	1	10	61	0.05	1	1	1	1	1	300.13	0	5	3	1	3	1	12	3	1	3	1
1	1	10	62	1.8	1	1	1	1	1	146.15	1	12	1	1	1	1	19	1	1	1	1
1	1	10	63	0.1	3	3	2	2	1	317.63	0	10	1	3	3	1	14	1	3	3	1
1	1	10	64	0.2	1	1	1	1	1	257.17	1	1	3	1	3	1	8	1	3	1	3
1	1	10	65	0.05	3	3	2	2	1	357.34	0	8	1	3	3	1	12	1	3	3	1
1	1	10	66	0.8	3	3	2	2	1	194.62	1	12	1	3	3	1	6	3	1	1	3
1	1	10	67	0.2	1	1	1	1	1	269.38	1	9	1	1	1	1	13	1	1	1	1
1	1	10	68	0.8	1	1	1	1	1	222.57	1	6	1	3	1	3	15	1	3	1	3
1	1	10	69	0.1	1	1	1	1	1	221.72	1	6	3	1	3	1	19	3	3	3	3
1	1	10	70	0.8	3	3	2	2	1	216.81	1	6	3	1	1	3	3	3	1	1	3
1	1	10	71	0.1	3	3	2	2	1	313.66	0	7	3	1	1	3	19	1	3	3	1
1	1	10	72	0.2	3	3	2	2	1	360.15	0	6	1	3	3	1	20	1	3	3	1
1	1	10	73	0.8	1	1	1	1	1	199.9	1	5	3	3	3	3	13	3	3	3	3
1	1	10	74	0.05	1	1	1	1	1	420.81	0	14	1	3	1	3	5	1	1	1	1
1	1	10	75	0.8	1	1	1	1	1	287.07	1	1	3	1	3	1	5	3	3	3	3
1	1	10	76	1.8	1	1	99	99	99	99	99	11	3	3	3	3	3	1	1	1	1
1	1	10	77	1.8	3	3	99	99	99	99	99	2	3	1	1	3	5	3	3	1	1
1	1	10	78	0.05	3	3	2	2	1	418.44	0	19	1	1	3	3	3	3	3	1	1
